{"resourceType": "Bundle", "type": "transaction", "entry": [{"resource": {"id": "patient-0", "gender": "male", "birthDate": "1956-07-25", "resourceType": "Patient"}, "request": {"method": "POST", "url": "Patient"}}, {"resource": {"status": "final", "code": {"coding": [{"display": "some name in resource Observation", "code": "xxx"}]}, "effectivePeriod": {"start": "2021-01-10T09:00:00+00:00", "end": "2021-01-10T09:15:00+00:00"}, "subject": {"display": "patient-0"}, "valueQuantity": {"value": 6.3, "unit": "mmol/l", "system": "http://unitsofmeasure.org", "code": "mmol/L"}, "id": "66630b21785248b48e39dc449ce2ae91", "resourceType": "Observation"}, "request": {"method": "POST", "url": "Observation"}}, {"resource": {"status": "final", "code": {"coding": [{"display": "some name in resource Procedure", "code": "xxx"}]}, "performedPeriod": {"start": "2021-01-10T09:00:00+00:00", "end": "2021-01-10T09:15:00+00:00"}, "subject": {"display": "patient-0"}, "id": "1d72df11cba24ad4bf6bddbb80631dae", "resourceType": "Procedure"}, "request": {"method": "POST", "url": "Procedure"}}, {"resource": {"status": "final", "intent": "order", "contained": [{"resourceType": "Medication", "id": "medication-0e54a26d4a574014b4c8fafd1b4fdddc", "code": {"coding": [{"display": "some name in resource MedicationRequest", "code": "xxx"}]}}], "dispenseRequest": {"validityPeriod": {"start": "2021-01-10T09:00:00+00:00"}, "expectedSupplyDuration": {"value": 10, "unit": "some duration_unit"}}, "medicationReference": {"reference": "#medication-0e54a26d4a574014b4c8fafd1b4fdddc"}, "subject": {"display": "patient-0"}, "dosageInstruction": [{"text": "some dosage"}], "id": "0e54a26d4a574014b4c8fafd1b4fdddc", "resourceType": "MedicationRequest"}, "request": {"method": "POST", "url": "MedicationRequest"}}, {"resource": {"id": "patient-0", "gender": "male", "birthDate": "1956-07-25", "deceasedDateTime": "2021-01-10T09:15:00+00:00", "resourceType": "Patient"}, "request": {"method": "POST", "url": "Patient"}}, {"resource": {"code": {"coding": [{"display": "some name in resource Condition", "code": "xxx"}]}, "recordedDate": "2021-01-10T09:00:00+00:00", "subject": {"display": "patient-0"}, "abatementDateTime": "2021-01-10T09:15:00+00:00", "clinicalStatus": {"coding": [{"system": "http://terminology.hl7.org/CodeSystem/condition-clinical", "code": "inactive"}]}, "id": "08f19d393e14463093caaf6b052ac58e", "resourceType": "Condition"}, "request": {"method": "POST", "url": "Condition"}}, {"resource": {"status": "active", "serviceCategory": [{"coding": [{"display": "some name in resource Appointment", "code": "xxx"}]}], "reasonReference": [{"display": "some name in resource Appointment"}], "description": "description", "start": "2021-01-10T09:00:00+00:00", "participant": [{"actor": {"reference": "Patient/patient-0", "display": "patient-0"}, "status": "accepted"}], "end": "2021-01-10T09:15:00+00:00", "id": "feb1f25f4b95495d9010b109aae969a4", "resourceType": "Appointment"}, "request": {"method": "POST", "url": "Appointment"}}, {"resource": {"status": "active", "intent": "order", "code": {"coding": [{"display": "some name in resource ServiceRequest", "code": "xxx"}]}, "reasonCode": [{"text": "some name in resource ServiceRequest"}], "occurrenceDateTime": "2021-01-10T09:00:00+00:00", "subject": {"display": "patient-0"}, "id": "3c0fca33fbf64a63af556377edb3445a", "resourceType": "ServiceRequest"}, "request": {"method": "POST", "url": "ServiceRequest"}}, {"resource": {"status": "finished", "class": {"display": "some name in resource Encounter", "code": "xxx"}, "period": {"start": "2021-01-10T09:00:00+00:00", "end": "2021-01-10T09:15:00+00:00"}, "subject": {"display": "patient-0"}, "id": "487857cc0d8f4d738b91ac6849bac729", "resourceType": "Encounter"}, "request": {"method": "POST", "url": "Encounter"}}]}